textWord,textColor,corrAns,congruency,trials.thisRepN,trials.thisTrialN,trials.thisN,trials.thisIndex,practice_trials.thisRepN,practice_trials.thisTrialN,practice_trials.thisN,practice_trials.thisIndex,thisRow.t,notes,trial.started,word.started,key_resp.started,trial.stopped,key_resp.keys,key_resp.rt,key_resp.duration,participant,session,date,expName,psychopyVersion,frameRate,expStart,
green,green,down,incongruent,0,0,0,1,0,0,0,0,0.09656182199978502,,0.030340345001604874,0.5147888810024597,0.5147888810024597,1.1348766139999498,left,0.6196368360033375,None,704612,001,2023-11-30_20h09.45.701,stroopeffect_solo,2023.2.2,56.87178476954697,2023-11-30 20h09.58.298428 +0530,
green,green,down,incongruent,0,0,0,1,1,0,1,0,1.1488951640058076,,1.136037356001907,1.6480873480031732,1.6480873480031732,1.8503690720026498,right,0.20192221899924334,None,704612,001,2023-11-30_20h09.45.701,stroopeffect_solo,2023.2.2,56.87178476954697,2023-11-30 20h09.58.298428 +0530,
green,green,down,incongruent,0,0,0,1,2,0,2,0,1.8647445720052929,,1.8511581600032514,2.364668086003803,2.364668086003803,2.634998091001762,left,0.2698038010057644,None,704612,001,2023-11-30_20h09.45.701,stroopeffect_solo,2023.2.2,56.87178476954697,2023-11-30 20h09.58.298428 +0530,
green,green,down,incongruent,0,0,0,1,3,0,3,0,2.649074789005681,,2.636056407005526,3.148591926001245,3.148591926001245,3.5670655499998247,left,0.4181486320012482,None,704612,001,2023-11-30_20h09.45.701,stroopeffect_solo,2023.2.2,56.87178476954697,2023-11-30 20h09.58.298428 +0530,
green,green,down,incongruent,0,0,0,1,4,0,4,0,3.581350245003705,,3.5677778880053665,4.081521968000743,4.081521968000743,4.1348190260032425,right,0.052940214998670854,None,704612,001,2023-11-30_20h09.45.701,stroopeffect_solo,2023.2.2,56.87178476954697,2023-11-30 20h09.58.298428 +0530,
green,green,down,incongruent,0,0,0,1,,,,,,,,,,,,,,704612,001,2023-11-30_20h09.45.701,stroopeffect_solo,2023.2.2,56.87178476954697,2023-11-30 20h09.58.298428 +0530,
red,red,left,congruent,0,1,1,0,0,0,0,0,4.1523758149996866,,4.136655456000881,4.647981309004535,4.647981309004535,4.783773776005546,left,0.13540559400280472,None,704612,001,2023-11-30_20h09.45.701,stroopeffect_solo,2023.2.2,56.87178476954697,2023-11-30 20h09.58.298428 +0530,
red,red,left,congruent,0,1,1,0,1,0,1,0,4.798243697005091,,4.784874951001257,5.298001357004978,5.298001357004978,6.034289870003704,right,0.7359381220012438,None,704612,001,2023-11-30_20h09.45.701,stroopeffect_solo,2023.2.2,56.87178476954697,2023-11-30 20h09.58.298428 +0530,
red,red,left,congruent,0,1,1,0,2,0,2,0,6.048508947002119,,6.035074463005003,6.548027112999989,6.548027112999989,6.63414243599982,left,0.08567396199941868,None,704612,001,2023-11-30_20h09.45.701,stroopeffect_solo,2023.2.2,56.87178476954697,2023-11-30 20h09.58.298428 +0530,
red,red,left,congruent,0,1,1,0,3,0,3,0,6.648734608999803,,6.635244065000734,7.147902677003003,7.147902677003003,7.201308955001878,right,0.05289022999932058,None,704612,001,2023-11-30_20h09.45.701,stroopeffect_solo,2023.2.2,56.87178476954697,2023-11-30 20h09.58.298428 +0530,
red,red,left,congruent,0,1,1,0,4,0,4,0,7.215440886000579,,7.202229832000739,7.714745416000369,7.714745416000369,7.833573454001453,left,0.11847717400087276,None,704612,001,2023-11-30_20h09.45.701,stroopeffect_solo,2023.2.2,56.87178476954697,2023-11-30 20h09.58.298428 +0530,
red,red,left,congruent,0,1,1,0,,,,,,,,,,,,,,704612,001,2023-11-30_20h09.45.701,stroopeffect_solo,2023.2.2,56.87178476954697,2023-11-30 20h09.58.298428 +0530,
blue,blue,right,congruent,0,2,2,2,0,0,0,0,7.8529289580037585,,7.835360847006086,8.347964416003379,8.347964416003379,8.418182579000131,right,0.06968760800373275,None,704612,001,2023-11-30_20h09.45.701,stroopeffect_solo,2023.2.2,56.87178476954697,2023-11-30 20h09.58.298428 +0530,
blue,blue,right,congruent,0,2,2,2,1,0,1,0,8.43287703399983,,8.419701642000291,8.931253246002598,8.931253246002598,9.11700987900258,left,0.18541212700074539,None,704612,001,2023-11-30_20h09.45.701,stroopeffect_solo,2023.2.2,56.87178476954697,2023-11-30 20h09.58.298428 +0530,
blue,blue,right,congruent,0,2,2,2,2,0,2,0,9.131333792000078,,9.117796622005699,9.631265642005019,9.631265642005019,9.717373557003157,right,0.08566945500206202,None,704612,001,2023-11-30_20h09.45.701,stroopeffect_solo,2023.2.2,56.87178476954697,2023-11-30 20h09.58.298428 +0530,
blue,blue,right,congruent,0,2,2,2,3,0,3,0,9.732060125999851,,9.718478353002865,10.231282464999822,10.231282464999822,10.251010223000776,left,0.01936028600175632,None,704612,001,2023-11-30_20h09.45.701,stroopeffect_solo,2023.2.2,56.87178476954697,2023-11-30 20h09.58.298428 +0530,
blue,blue,right,congruent,0,2,2,2,4,0,4,0,10.265587075002259,,10.25182542600669,10.764554499000951,10.764554499000951,10.785356682004931,right,0.020357731002150103,None,704612,001,2023-11-30_20h09.45.701,stroopeffect_solo,2023.2.2,56.87178476954697,2023-11-30 20h09.58.298428 +0530,
blue,blue,right,congruent,0,2,2,2,,,,,,,,,,,,,,704612,001,2023-11-30_20h09.45.701,stroopeffect_solo,2023.2.2,56.87178476954697,2023-11-30 20h09.58.298428 +0530,
blue,blue,right,congruent,1,0,3,2,0,0,0,0,10.801421803000267,,10.787873887005844,11.29795316200034,11.29795316200034,11.334857177003869,left,0.03643275200010976,None,704612,001,2023-11-30_20h09.45.701,stroopeffect_solo,2023.2.2,56.87178476954697,2023-11-30 20h09.58.298428 +0530,
blue,blue,right,congruent,1,0,3,2,1,0,1,0,11.349398218000715,,11.336366524999903,11.847932548000244,11.847932548000244,11.88504020000255,right,0.0365867549990071,None,704612,001,2023-11-30_20h09.45.701,stroopeffect_solo,2023.2.2,56.87178476954697,2023-11-30 20h09.58.298428 +0530,
blue,blue,right,congruent,1,0,3,2,2,0,2,0,11.89901991700026,,11.886095030000433,12.397945757002162,12.397945757002162,12.467402455004049,left,0.0689222399960272,None,704612,001,2023-11-30_20h09.45.701,stroopeffect_solo,2023.2.2,56.87178476954697,2023-11-30 20h09.58.298428 +0530,
blue,blue,right,congruent,1,0,3,2,3,0,3,0,12.481994592002593,,12.468436303002818,12.981175984001311,12.981175984001311,13.033602661002078,right,0.052044757998373825,None,704612,001,2023-11-30_20h09.45.701,stroopeffect_solo,2023.2.2,56.87178476954697,2023-11-30 20h09.58.298428 +0530,
blue,blue,right,congruent,1,0,3,2,4,0,4,0,13.047937567003828,,13.034399859003315,13.547924431004503,13.547924431004503,13.600704186006624,left,0.05233277299703332,None,704612,001,2023-11-30_20h09.45.701,stroopeffect_solo,2023.2.2,56.87178476954697,2023-11-30 20h09.58.298428 +0530,
blue,blue,right,congruent,1,0,3,2,,,,,,,,,,,,,,704612,001,2023-11-30_20h09.45.701,stroopeffect_solo,2023.2.2,56.87178476954697,2023-11-30 20h09.58.298428 +0530,
green,green,down,incongruent,1,1,4,1,0,0,0,0,13.618637144005334,,13.6033429740055,14.115133145001892,14.115133145001892,14.151603856000293,right,0.03595458900235826,None,704612,001,2023-11-30_20h09.45.701,stroopeffect_solo,2023.2.2,56.87178476954697,2023-11-30 20h09.58.298428 +0530,
green,green,down,incongruent,1,1,4,1,1,0,1,0,14.165933668002253,,14.152795868001704,14.664826801003073,14.664826801003073,14.718550176003191,left,0.05307844699564157,None,704612,001,2023-11-30_20h09.45.701,stroopeffect_solo,2023.2.2,56.87178476954697,2023-11-30 20h09.58.298428 +0530,
green,green,down,incongruent,1,1,4,1,2,0,2,0,14.733116806004546,,14.71966339100618,15.23119166700053,15.23119166700053,15.266730388000724,right,0.035187386005418375,None,704612,001,2023-11-30_20h09.45.701,stroopeffect_solo,2023.2.2,56.87178476954697,2023-11-30 20h09.58.298428 +0530,
green,green,down,incongruent,1,1,4,1,3,0,3,0,15.28094842700375,,15.26752127900545,15.781265629004338,15.781265629004338,15.833573595002235,left,0.051953483001852874,None,704612,001,2023-11-30_20h09.45.701,stroopeffect_solo,2023.2.2,56.87178476954697,2023-11-30 20h09.58.298428 +0530,
green,green,down,incongruent,1,1,4,1,4,0,4,0,15.848008001004928,,15.834358956002689,16.347933058001217,16.347933058001217,16.39977070400346,right,0.05139435699675232,None,704612,001,2023-11-30_20h09.45.701,stroopeffect_solo,2023.2.2,56.87178476954697,2023-11-30 20h09.58.298428 +0530,
green,green,down,incongruent,1,1,4,1,,,,,,,,,,,,,,704612,001,2023-11-30_20h09.45.701,stroopeffect_solo,2023.2.2,56.87178476954697,2023-11-30 20h09.58.298428 +0530,
red,red,left,congruent,1,2,5,0,0,0,0,0,16.418477443003212,,16.402286916003504,16.914572712004883,16.914572712004883,16.967281347002427,left,0.052263833000324667,None,704612,001,2023-11-30_20h09.45.701,stroopeffect_solo,2023.2.2,56.87178476954697,2023-11-30 20h09.58.298428 +0530,
red,red,left,congruent,1,2,5,0,1,0,1,0,16.982594970002538,,16.968841455003712,17.48146258300403,17.48146258300403,17.501547967003717,right,0.019619214996055234,None,704612,001,2023-11-30_20h09.45.701,stroopeffect_solo,2023.2.2,56.87178476954697,2023-11-30 20h09.58.298428 +0530,
red,red,left,congruent,1,2,5,0,2,0,2,0,17.516006121004466,,17.50265046000277,18.01480897300644,18.01480897300644,18.068114621004497,left,0.05291995400330052,None,704612,001,2023-11-30_20h09.45.701,stroopeffect_solo,2023.2.2,56.87178476954697,2023-11-30 20h09.58.298428 +0530,
red,red,left,congruent,1,2,5,0,3,0,3,0,18.082401365005353,,18.06890114700218,18.581514071003767,18.581514071003767,18.618759904005856,right,0.036728450999362394,None,704612,001,2023-11-30_20h09.45.701,stroopeffect_solo,2023.2.2,56.87178476954697,2023-11-30 20h09.58.298428 +0530,
red,red,left,congruent,1,2,5,0,4,0,4,0,18.632796162004524,,18.619644769001752,19.131468439001765,19.131468439001765,19.167890476004686,left,0.03604206499585416,None,704612,001,2023-11-30_20h09.45.701,stroopeffect_solo,2023.2.2,56.87178476954697,2023-11-30 20h09.58.298428 +0530,
red,red,left,congruent,1,2,5,0,,,,,,,,,,,,,,704612,001,2023-11-30_20h09.45.701,stroopeffect_solo,2023.2.2,56.87178476954697,2023-11-30 20h09.58.298428 +0530,
blue,blue,right,congruent,2,0,6,2,0,0,0,0,19.183808800000406,,19.169677145000605,19.681672120001167,19.681672120001167,19.717158177001693,right,0.0350374460031162,None,704612,001,2023-11-30_20h09.45.701,stroopeffect_solo,2023.2.2,56.87178476954697,2023-11-30 20h09.58.298428 +0530,
blue,blue,right,congruent,2,0,6,2,1,0,1,0,19.7323220640028,,19.718678759003524,20.231999228002678,20.231999228002678,20.50246358300501,left,0.26994242899672827,None,704612,001,2023-11-30_20h09.45.701,stroopeffect_solo,2023.2.2,56.87178476954697,2023-11-30 20h09.58.298428 +0530,
blue,blue,right,congruent,2,0,6,2,2,0,2,0,20.517047671004548,,20.503541288002452,21.01583912600472,21.01583912600472,21.285053211002378,down,0.26860583599773236,None,704612,001,2023-11-30_20h09.45.701,stroopeffect_solo,2023.2.2,56.87178476954697,2023-11-30 20h09.58.298428 +0530,
blue,blue,right,congruent,2,0,6,2,3,0,3,0,21.299161811002705,,21.285853991001204,21.797742116003064,21.797742116003064,21.901032810004835,down,0.10292435599694727,None,704612,001,2023-11-30_20h09.45.701,stroopeffect_solo,2023.2.2,56.87178476954697,2023-11-30 20h09.58.298428 +0530,
blue,blue,right,congruent,2,0,6,2,4,0,4,0,21.915147661005904,,21.90182407600514,22.415019334002864,22.415019334002864,22.71769417100586,left,0.30223198699968634,None,704612,001,2023-11-30_20h09.45.701,stroopeffect_solo,2023.2.2,56.87178476954697,2023-11-30 20h09.58.298428 +0530,
blue,blue,right,congruent,2,0,6,2,,,,,,,,,,,,,,704612,001,2023-11-30_20h09.45.701,stroopeffect_solo,2023.2.2,56.87178476954697,2023-11-30 20h09.58.298428 +0530,
green,green,down,incongruent,2,1,7,1,0,0,0,0,22.735103859005903,,22.720207881000533,23.23159954300354,23.23159954300354,23.467230250003922,down,0.2352315419993829,None,704612,001,2023-11-30_20h09.45.701,stroopeffect_solo,2023.2.2,56.87178476954697,2023-11-30 20h09.58.298428 +0530,
green,green,down,incongruent,2,1,7,1,1,0,1,0,23.481681012999616,,23.468318062004982,23.98136758700275,23.98136758700275,24.03321891300584,down,0.05140261199994711,None,704612,001,2023-11-30_20h09.45.701,stroopeffect_solo,2023.2.2,56.87178476954697,2023-11-30 20h09.58.298428 +0530,
green,green,down,incongruent,2,1,7,1,2,0,2,0,24.04807299600361,,24.034313993004616,24.548638791005942,24.548638791005942,24.817072158002702,left,0.2679852830042364,None,704612,001,2023-11-30_20h09.45.701,stroopeffect_solo,2023.2.2,56.87178476954697,2023-11-30 20h09.58.298428 +0530,
green,green,down,incongruent,2,1,7,1,3,0,3,0,24.8313297900022,,24.817858762005926,25.33132747500349,25.33132747500349,25.583293777999643,down,0.2515864339948166,None,704612,001,2023-11-30_20h09.45.701,stroopeffect_solo,2023.2.2,56.87178476954697,2023-11-30 20h09.58.298428 +0530,
green,green,down,incongruent,2,1,7,1,4,0,4,0,25.597523353004362,,25.584077659004834,26.09775082800479,26.09775082800479,26.150638849001552,down,0.0524460779997753,None,704612,001,2023-11-30_20h09.45.701,stroopeffect_solo,2023.2.2,56.87178476954697,2023-11-30 20h09.58.298428 +0530,
green,green,down,incongruent,2,1,7,1,,,,,,,,,,,,,,704612,001,2023-11-30_20h09.45.701,stroopeffect_solo,2023.2.2,56.87178476954697,2023-11-30 20h09.58.298428 +0530,
red,red,left,congruent,2,2,8,0,0,0,0,0,26.16788522800198,,26.153177552005218,26.664472029005992,26.664472029005992,26.883557127999666,left,0.21872590600105468,None,704612,001,2023-11-30_20h09.45.701,stroopeffect_solo,2023.2.2,56.87178476954697,2023-11-30 20h09.58.298428 +0530,
red,red,left,congruent,2,2,8,0,1,0,1,0,26.89784524400602,,26.88463812700502,27.397765013003664,27.397765013003664,27.417455556002096,right,0.019338667996635195,None,704612,001,2023-11-30_20h09.45.701,stroopeffect_solo,2023.2.2,56.87178476954697,2023-11-30 20h09.58.298428 +0530,
red,red,left,congruent,2,2,8,0,2,0,2,0,27.431581458004075,,27.418233485004748,27.931048045000352,27.931048045000352,27.984655811000266,left,0.05309347200090997,None,704612,001,2023-11-30_20h09.45.701,stroopeffect_solo,2023.2.2,56.87178476954697,2023-11-30 20h09.58.298428 +0530,
red,red,left,congruent,2,2,8,0,3,0,3,0,27.99869749100617,,27.985666719003348,28.498948514003132,28.498948514003132,28.736560281002312,down,0.23721510600444162,None,704612,001,2023-11-30_20h09.45.701,stroopeffect_solo,2023.2.2,56.87178476954697,2023-11-30 20h09.58.298428 +0530,
red,red,left,congruent,2,2,8,0,4,0,4,0,28.74915963300009,,28.737348009002744,29.24772574400413,29.24772574400413,29.301072623005894,down,0.052898437999829184,None,704612,001,2023-11-30_20h09.45.701,stroopeffect_solo,2023.2.2,56.87178476954697,2023-11-30 20h09.58.298428 +0530,
red,red,left,congruent,2,2,8,0,,,,,,,,,,,,,,704612,001,2023-11-30_20h09.45.701,stroopeffect_solo,2023.2.2,56.87178476954697,2023-11-30 20h09.58.298428 +0530,
blue,blue,right,congruent,3,0,9,2,0,0,0,0,29.31850767099968,,29.303610469003615,29.81434506000369,29.81434506000369,30.067103872999724,left,0.2523783610013197,None,704612,001,2023-11-30_20h09.45.701,stroopeffect_solo,2023.2.2,56.87178476954697,2023-11-30 20h09.58.298428 +0530,
blue,blue,right,congruent,3,0,9,2,1,0,1,0,30.081540865001443,,30.06818853700679,30.581798938001157,30.581798938001157,30.818022008999833,down,0.2357431530035683,None,704612,001,2023-11-30_20h09.45.701,stroopeffect_solo,2023.2.2,56.87178476954697,2023-11-30 20h09.58.298428 +0530,
blue,blue,right,congruent,3,0,9,2,2,0,2,0,30.83202305400482,,30.81912749500043,31.33107618800568,31.33107618800568,31.384754990001966,down,0.0531676669997978,None,704612,001,2023-11-30_20h09.45.701,stroopeffect_solo,2023.2.2,56.87178476954697,2023-11-30 20h09.58.298428 +0530,
blue,blue,right,congruent,3,0,9,2,3,0,3,0,31.399532878000173,,31.38584228700347,31.898512070001743,31.898512070001743,32.21746128700033,left,0.318566819994885,None,704612,001,2023-11-30_20h09.45.701,stroopeffect_solo,2023.2.2,56.87178476954697,2023-11-30 20h09.58.298428 +0530,
blue,blue,right,congruent,3,0,9,2,4,0,4,0,32.2317866240046,,32.21824036200269,32.73124535700481,32.73124535700481,32.95132549900154,down,0.21955978600453818,None,704612,001,2023-11-30_20h09.45.701,stroopeffect_solo,2023.2.2,56.87178476954697,2023-11-30 20h09.58.298428 +0530,
blue,blue,right,congruent,3,0,9,2,,,,,,,,,,,,,,704612,001,2023-11-30_20h09.45.701,stroopeffect_solo,2023.2.2,56.87178476954697,2023-11-30 20h09.58.298428 +0530,
red,red,left,congruent,3,1,10,0,0,0,0,0,32.96855036400666,,32.95319811500667,33.46426905600674,33.46426905600674,33.567114447003405,down,0.10246993000328075,None,704612,001,2023-11-30_20h09.45.701,stroopeffect_solo,2023.2.2,56.87178476954697,2023-11-30 20h09.58.298428 +0530,
red,red,left,congruent,3,1,10,0,1,0,1,0,33.5815290419996,,33.56819276400347,34.0809687630026,34.0809687630026,34.23514052100654,down,0.15364916600083234,None,704612,001,2023-11-30_20h09.45.701,stroopeffect_solo,2023.2.2,56.87178476954697,2023-11-30 20h09.58.298428 +0530,
red,red,left,congruent,3,1,10,0,2,0,2,0,34.24929162900662,,34.23622327799967,34.747641024005134,34.747641024005134,34.80172177600616,down,0.05369230199721642,None,704612,001,2023-11-30_20h09.45.701,stroopeffect_solo,2023.2.2,56.87178476954697,2023-11-30 20h09.58.298428 +0530,
red,red,left,congruent,3,1,10,0,3,0,3,0,34.815393998003856,,34.802504758001305,35.314895299001364,35.314895299001364,35.63316133000626,left,0.3178810719982721,None,704612,001,2023-11-30_20h09.45.701,stroopeffect_solo,2023.2.2,56.87178476954697,2023-11-30 20h09.58.298428 +0530,
red,red,left,congruent,3,1,10,0,4,0,4,0,35.64765352399991,,35.63394208600221,36.14757842700055,36.14757842700055,36.36759006200009,down,0.2195405460006441,None,704612,001,2023-11-30_20h09.45.701,stroopeffect_solo,2023.2.2,56.87178476954697,2023-11-30 20h09.58.298428 +0530,
red,red,left,congruent,3,1,10,0,,,,,,,,,,,,,,704612,001,2023-11-30_20h09.45.701,stroopeffect_solo,2023.2.2,56.87178476954697,2023-11-30 20h09.58.298428 +0530,
green,green,down,incongruent,3,2,11,1,0,0,0,0,36.3849178330056,,36.369405194003775,36.88088022699958,36.88088022699958,36.91704044800281,down,0.03580263299954822,None,704612,001,2023-11-30_20h09.45.701,stroopeffect_solo,2023.2.2,56.87178476954697,2023-11-30 20h09.58.298428 +0530,
green,green,down,incongruent,3,2,11,1,1,0,1,0,36.93160913900647,,36.91812032300368,37.43088700900262,37.43088700900262,37.734381952999684,down,0.3029617899956065,None,704612,001,2023-11-30_20h09.45.701,stroopeffect_solo,2023.2.2,56.87178476954697,2023-11-30 20h09.58.298428 +0530,
green,green,down,incongruent,3,2,11,1,2,0,2,0,37.748370049004734,,37.735249091005244,38.247629419005534,38.247629419005534,38.61798365300638,left,0.3698426330010989,None,704612,001,2023-11-30_20h09.45.701,stroopeffect_solo,2023.2.2,56.87178476954697,2023-11-30 20h09.58.298428 +0530,
green,green,down,incongruent,3,2,11,1,3,0,3,0,38.6318873420023,,38.618854327003646,39.13090079900576,39.13090079900576,39.384152624006674,down,0.252856562998204,None,704612,001,2023-11-30_20h09.45.701,stroopeffect_solo,2023.2.2,56.87178476954697,2023-11-30 20h09.58.298428 +0530,
green,green,down,incongruent,3,2,11,1,4,0,4,0,39.39818057700177,,39.38493224600097,39.89750563800044,39.89750563800044,40.1495885300028,down,0.2516404929992859,None,704612,001,2023-11-30_20h09.45.701,stroopeffect_solo,2023.2.2,56.87178476954697,2023-11-30 20h09.58.298428 +0530,
green,green,down,incongruent,3,2,11,1,,,,,,,,,,,,,,704612,001,2023-11-30_20h09.45.701,stroopeffect_solo,2023.2.2,56.87178476954697,2023-11-30 20h09.58.298428 +0530,
blue,blue,right,congruent,4,0,12,2,0,0,0,0,40.16826395100361,,40.15211314000044,40.664192847005324,40.664192847005324,40.71663866900053,down,0.052089734999754,None,704612,001,2023-11-30_20h09.45.701,stroopeffect_solo,2023.2.2,56.87178476954697,2023-11-30 20h09.58.298428 +0530,
blue,blue,right,congruent,4,0,12,2,1,0,1,0,40.73119431100349,,40.71772265900654,41.23097271800361,41.23097271800361,41.46634094000183,down,0.23492090700165136,None,704612,001,2023-11-30_20h09.45.701,stroopeffect_solo,2023.2.2,56.87178476954697,2023-11-30 20h09.58.298428 +0530,
blue,blue,right,congruent,4,0,12,2,2,0,2,0,41.48120267100603,,41.46744930400018,41.980831423999916,41.980831423999916,42.0166086110039,down,0.03533676200459013,None,704612,001,2023-11-30_20h09.45.701,stroopeffect_solo,2023.2.2,56.87178476954697,2023-11-30 20h09.58.298428 +0530,
blue,blue,right,congruent,4,0,12,2,3,0,3,0,42.03101470200636,,42.01750672500202,42.53188591900107,42.53188591900107,42.633540719005396,down,0.10128390599857084,None,704612,001,2023-11-30_20h09.45.701,stroopeffect_solo,2023.2.2,56.87178476954697,2023-11-30 20h09.58.298428 +0530,
blue,blue,right,congruent,4,0,12,2,4,0,4,0,42.647840816003736,,42.634325982005976,43.14777868500096,43.14777868500096,43.20119550800155,down,0.052888942998833954,None,704612,001,2023-11-30_20h09.45.701,stroopeffect_solo,2023.2.2,56.87178476954697,2023-11-30 20h09.58.298428 +0530,
blue,blue,right,congruent,4,0,12,2,,,,,,,,,,,,,,704612,001,2023-11-30_20h09.45.701,stroopeffect_solo,2023.2.2,56.87178476954697,2023-11-30 20h09.58.298428 +0530,
red,red,left,congruent,4,1,13,0,0,0,0,0,43.21686442400096,,43.203237051006,43.714242646005005,43.714242646005005,43.750710639003955,down,0.035955598003056366,None,704612,001,2023-11-30_20h09.45.701,stroopeffect_solo,2023.2.2,56.87178476954697,2023-11-30 20h09.58.298428 +0530,
red,red,left,congruent,4,1,13,0,1,0,1,0,43.76498887700291,,43.75197734300309,44.264152069001284,44.264152069001284,44.267342174003716,down,0.002800873000524007,None,704612,001,2023-11-30_20h09.45.701,stroopeffect_solo,2023.2.2,56.87178476954697,2023-11-30 20h09.58.298428 +0530,
red,red,left,congruent,4,1,13,0,2,0,2,0,44.281450940005016,,44.26812812800199,44.78060074800305,44.78060074800305,44.88433964300202,down,0.1032216219973634,None,704612,001,2023-11-30_20h09.45.701,stroopeffect_solo,2023.2.2,56.87178476954697,2023-11-30 20h09.58.298428 +0530,
red,red,left,congruent,4,1,13,0,3,0,3,0,44.89825151300465,,44.885325200004445,45.39814169100282,45.39814169100282,45.73525365500245,left,0.3366003699993598,None,704612,001,2023-11-30_20h09.45.701,stroopeffect_solo,2023.2.2,56.87178476954697,2023-11-30 20h09.58.298428 +0530,
red,red,left,congruent,4,1,13,0,4,0,4,0,45.7495188890025,,45.73629195000103,46.24854691600194,46.24854691600194,46.48454631000641,down,0.23565777399926446,None,704612,001,2023-11-30_20h09.45.701,stroopeffect_solo,2023.2.2,56.87178476954697,2023-11-30 20h09.58.298428 +0530,
red,red,left,congruent,4,1,13,0,,,,,,,,,,,,,,704612,001,2023-11-30_20h09.45.701,stroopeffect_solo,2023.2.2,56.87178476954697,2023-11-30 20h09.58.298428 +0530,
green,green,down,incongruent,4,2,14,1,0,0,0,0,46.50175019400194,,46.48630686400429,46.99797594100528,46.99797594100528,47.06821336300345,down,0.06974718799756374,None,704612,001,2023-11-30_20h09.45.701,stroopeffect_solo,2023.2.2,56.87178476954697,2023-11-30 20h09.58.298428 +0530,
green,green,down,incongruent,4,2,14,1,1,0,1,0,47.082782382000005,,47.06937587700668,47.58125634200405,47.58125634200405,47.88388512200618,down,0.3022462560038548,None,704612,001,2023-11-30_20h09.45.701,stroopeffect_solo,2023.2.2,56.87178476954697,2023-11-30 20h09.58.298428 +0530,
green,green,down,incongruent,4,2,14,1,2,0,2,0,47.898328710005444,,47.8846731060039,48.397765822999645,48.397765822999645,48.583901212005,right,0.1857385030016303,None,704612,001,2023-11-30_20h09.45.701,stroopeffect_solo,2023.2.2,56.87178476954697,2023-11-30 20h09.58.298428 +0530,
green,green,down,incongruent,4,2,14,1,3,0,3,0,48.598310411005514,,48.584685647001606,49.09774765500333,49.09774765500333,49.21860751400527,left,0.12035196900251321,None,704612,001,2023-11-30_20h09.45.701,stroopeffect_solo,2023.2.2,56.87178476954697,2023-11-30 20h09.58.298428 +0530,
green,green,down,incongruent,4,2,14,1,4,0,4,0,49.23291217100632,,49.2197224440024,49.731203857001674,49.731203857001674,49.78540618900297,right,0.05367661100171972,None,704612,001,2023-11-30_20h09.45.701,stroopeffect_solo,2023.2.2,56.87178476954697,2023-11-30 20h09.58.298428 +0530,
green,green,down,incongruent,4,2,14,1,,,,,,,,,,,,,,704612,001,2023-11-30_20h09.45.701,stroopeffect_solo,2023.2.2,56.87178476954697,2023-11-30 20h09.58.298428 +0530,
blue,blue,right,congruent,5,0,15,2,0,0,0,0,49.80212856200524,,49.787577881004836,50.29740791900258,50.29740791900258,50.43271958100377,left,0.13486226899840403,None,704612,001,2023-11-30_20h09.45.701,stroopeffect_solo,2023.2.2,56.87178476954697,2023-11-30 20h09.58.298428 +0530,
blue,blue,right,congruent,5,0,15,2,1,0,1,0,50.447892183001386,,50.434233201005554,50.947371023001324,50.947371023001324,51.00081217400293,right,0.05294950700044865,None,704612,001,2023-11-30_20h09.45.701,stroopeffect_solo,2023.2.2,56.87178476954697,2023-11-30 20h09.58.298428 +0530,
blue,blue,right,congruent,5,0,15,2,2,0,2,0,51.01489939900057,,51.00170756300213,51.51412648900441,51.51412648900441,51.600108808001096,left,0.08553468500031158,None,704612,001,2023-11-30_20h09.45.701,stroopeffect_solo,2023.2.2,56.87178476954697,2023-11-30 20h09.58.298428 +0530,
blue,blue,right,congruent,5,0,15,2,3,0,3,0,51.614772913002525,,51.601207908002834,52.11422281200066,52.11422281200066,52.24998105200211,right,0.13540254200052004,None,704612,001,2023-11-30_20h09.45.701,stroopeffect_solo,2023.2.2,56.87178476954697,2023-11-30 20h09.58.298428 +0530,
blue,blue,right,congruent,5,0,15,2,4,0,4,0,52.26422173500032,,52.25076540900045,52.76411860600638,52.76411860600638,52.83308029000182,left,0.06857150900032138,None,704612,001,2023-11-30_20h09.45.701,stroopeffect_solo,2023.2.2,56.87178476954697,2023-11-30 20h09.58.298428 +0530,
blue,blue,right,congruent,5,0,15,2,,,,,,,,,,,,,,704612,001,2023-11-30_20h09.45.701,stroopeffect_solo,2023.2.2,56.87178476954697,2023-11-30 20h09.58.298428 +0530,
green,green,down,incongruent,5,1,16,1,0,0,0,0,52.849046303999785,,52.83485192300577,53.34709899300651,53.34709899300651,53.43399176400271,right,0.08636337400093907,None,704612,001,2023-11-30_20h09.45.701,stroopeffect_solo,2023.2.2,56.87178476954697,2023-11-30 20h09.58.298428 +0530,
green,green,down,incongruent,5,1,16,1,1,0,1,0,53.44874696700572,,53.43552669800556,53.94720491000044,53.94720491000044,53.984499289006635,left,0.03676170000107959,None,704612,001,2023-11-30_20h09.45.701,stroopeffect_solo,2023.2.2,56.87178476954697,2023-11-30 20h09.58.298428 +0530,
green,green,down,incongruent,5,1,16,1,2,0,2,0,53.99806681400514,,53.985401015001116,54.497978384002636,54.497978384002636,54.76647223200416,down,0.2680486989993369,None,704612,001,2023-11-30_20h09.45.701,stroopeffect_solo,2023.2.2,56.87178476954697,2023-11-30 20h09.58.298428 +0530,
green,green,down,incongruent,5,1,16,1,3,0,3,0,54.78085154300061,,54.76756886000658,55.280364277001354,55.280364277001354,55.383771876004175,down,0.1029663419976714,None,704612,001,2023-11-30_20h09.45.701,stroopeffect_solo,2023.2.2,56.87178476954697,2023-11-30 20h09.58.298428 +0530,
green,green,down,incongruent,5,1,16,1,4,0,4,0,55.39786825200281,,55.384873425005935,55.89708644000348,55.89708644000348,56.03280879900558,down,0.13533473500137916,None,704612,001,2023-11-30_20h09.45.701,stroopeffect_solo,2023.2.2,56.87178476954697,2023-11-30 20h09.58.298428 +0530,
green,green,down,incongruent,5,1,16,1,,,,,,,,,,,,,,704612,001,2023-11-30_20h09.45.701,stroopeffect_solo,2023.2.2,56.87178476954697,2023-11-30 20h09.58.298428 +0530,
red,red,left,congruent,5,2,17,0,0,0,0,0,56.04949348500668,,56.034638790006284,56.54705356400518,56.54705356400518,56.667067211004905,right,0.11949989600543631,None,704612,001,2023-11-30_20h09.45.701,stroopeffect_solo,2023.2.2,56.87178476954697,2023-11-30 20h09.58.298428 +0530,
red,red,left,congruent,5,2,17,0,1,0,1,0,56.68168339100521,,56.668605596001726,57.18046967500413,57.18046967500413,57.23388489700301,left,0.052902021998306736,None,704612,001,2023-11-30_20h09.45.701,stroopeffect_solo,2023.2.2,56.87178476954697,2023-11-30 20h09.58.298428 +0530,
red,red,left,congruent,5,2,17,0,2,0,2,0,57.24799646199972,,57.23499684100534,57.746995772002265,57.746995772002265,57.998410038002476,down,0.2509685570039437,None,704612,001,2023-11-30_20h09.45.701,stroopeffect_solo,2023.2.2,56.87178476954697,2023-11-30 20h09.58.298428 +0530,
red,red,left,congruent,5,2,17,0,3,0,3,0,58.013800993001496,,57.99949766500504,58.51368235700647,58.51368235700647,58.566636757001106,down,0.05257151299883844,None,704612,001,2023-11-30_20h09.45.701,stroopeffect_solo,2023.2.2,56.87178476954697,2023-11-30 20h09.58.298428 +0530,
red,red,left,congruent,5,2,17,0,4,0,4,0,58.580662395004765,,58.56741587600118,59.080339589003415,59.080339589003415,59.33293189800315,left,0.2522390960002667,None,704612,001,2023-11-30_20h09.45.701,stroopeffect_solo,2023.2.2,56.87178476954697,2023-11-30 20h09.58.298428 +0530,
red,red,left,congruent,5,2,17,0,,,,,,,,,,,,,,704612,001,2023-11-30_20h09.45.701,stroopeffect_solo,2023.2.2,56.87178476954697,2023-11-30 20h09.58.298428 +0530,
red,red,left,congruent,6,0,18,0,0,0,0,0,59.34778282500338,,59.33472851500119,59.84035197800404,59.84035197800404,59.8617116020032,right,0.020906033998471685,None,704612,001,2023-11-30_20h09.45.701,stroopeffect_solo,2023.2.2,56.87178476954697,2023-11-30 20h09.58.298428 +0530,
red,red,left,congruent,6,0,18,0,1,0,1,0,59.87248263700167,,59.86268172500422,60.363621590004186,60.363621590004186,60.43365750700468,left,0.06964591900032246,None,704612,001,2023-11-30_20h09.45.701,stroopeffect_solo,2023.2.2,56.87178476954697,2023-11-30 20h09.58.298428 +0530,
red,red,left,congruent,6,0,18,0,2,0,2,0,60.44743815900438,,60.43443531400408,60.94696061000286,60.94696061000286,61.183422060006706,down,0.23611379499925533,None,704612,001,2023-11-30_20h09.45.701,stroopeffect_solo,2023.2.2,56.87178476954697,2023-11-30 20h09.58.298428 +0530,
red,red,left,congruent,6,0,18,0,3,0,3,0,61.19727048000641,,61.18420435600274,61.69688228200539,61.69688228200539,61.753186017005646,down,0.055790826001612004,None,704612,001,2023-11-30_20h09.45.701,stroopeffect_solo,2023.2.2,56.87178476954697,2023-11-30 20h09.58.298428 +0530,
red,red,left,congruent,6,0,18,0,4,0,4,0,61.765201300004264,,61.75415233300009,62.26360443000158,62.26360443000158,62.55046463700273,left,0.28633523699681973,None,704612,001,2023-11-30_20h09.45.701,stroopeffect_solo,2023.2.2,56.87178476954697,2023-11-30 20h09.58.298428 +0530,
red,red,left,congruent,6,0,18,0,,,,,,,,,,,,,,704612,001,2023-11-30_20h09.45.701,stroopeffect_solo,2023.2.2,56.87178476954697,2023-11-30 20h09.58.298428 +0530,
green,green,down,incongruent,6,1,19,1,0,0,0,0,62.56762201600213,,62.552632121005445,63.06536270100332,63.06536270100332,63.26604279500316,down,0.20028556700708577,None,704612,001,2023-11-30_20h09.45.701,stroopeffect_solo,2023.2.2,56.87178476954697,2023-11-30 20h09.58.298428 +0530,
green,green,down,incongruent,6,1,19,1,1,0,1,0,63.28018071800034,,63.26712072100054,63.7800629150006,63.7800629150006,63.80037805699976,down,0.01996410300489515,None,704612,001,2023-11-30_20h09.45.701,stroopeffect_solo,2023.2.2,56.87178476954697,2023-11-30 20h09.58.298428 +0530,
green,green,down,incongruent,6,1,19,1,2,0,2,0,63.813618132000556,,63.80108168800507,64.31408591299987,64.31408591299987,64.59911767599988,left,0.2846440639987122,None,704612,001,2023-11-30_20h09.45.701,stroopeffect_solo,2023.2.2,56.87178476954697,2023-11-30 20h09.58.298428 +0530,
green,green,down,incongruent,6,1,19,1,3,0,3,0,64.61306496800535,,64.59989205700549,65.11417286200594,65.11417286200594,65.3493705380024,down,0.2348176669984241,None,704612,001,2023-11-30_20h09.45.701,stroopeffect_solo,2023.2.2,56.87178476954697,2023-11-30 20h09.58.298428 +0530,
green,green,down,incongruent,6,1,19,1,4,0,4,0,65.36336318700342,,65.35015237500193,65.86336013500113,65.86336013500113,65.91596596400632,down,0.05225599899858935,None,704612,001,2023-11-30_20h09.45.701,stroopeffect_solo,2023.2.2,56.87178476954697,2023-11-30 20h09.58.298428 +0530,
green,green,down,incongruent,6,1,19,1,,,,,,,,,,,,,,704612,001,2023-11-30_20h09.45.701,stroopeffect_solo,2023.2.2,56.87178476954697,2023-11-30 20h09.58.298428 +0530,
blue,blue,right,congruent,6,2,20,2,0,0,0,0,65.93247383400012,,65.91776307300461,66.43012217200157,66.43012217200157,66.71500583500165,left,0.28443673199944897,None,704612,001,2023-11-30_20h09.45.701,stroopeffect_solo,2023.2.2,56.87178476954697,2023-11-30 20h09.58.298428 +0530,
blue,blue,right,congruent,6,2,20,2,1,0,1,0,66.73007630700158,,66.71671791700646,67.22999006700411,67.22999006700411,67.43331359400327,down,0.20279919199674623,None,704612,001,2023-11-30_20h09.45.701,stroopeffect_solo,2023.2.2,56.87178476954697,2023-11-30 20h09.58.298428 +0530,
blue,blue,right,congruent,6,2,20,2,2,0,2,0,67.44720354400488,,67.43441268300376,67.9466784010001,67.9466784010001,67.9999321130017,down,0.05278585799533175,None,704612,001,2023-11-30_20h09.45.701,stroopeffect_solo,2023.2.2,56.87178476954697,2023-11-30 20h09.58.298428 +0530,
blue,blue,right,congruent,6,2,20,2,3,0,3,0,68.01406494600087,,68.00100981700234,68.51354845400056,68.51354845400056,68.5492213960024,down,0.03523446899635019,None,704612,001,2023-11-30_20h09.45.701,stroopeffect_solo,2023.2.2,56.87178476954697,2023-11-30 20h09.58.298428 +0530,
blue,blue,right,congruent,6,2,20,2,4,0,4,0,68.56354142400232,,68.55032007600676,69.06326788000297,69.06326788000297,69.09840250100387,down,0.034685498001636006,None,704612,001,2023-11-30_20h09.45.701,stroopeffect_solo,2023.2.2,56.87178476954697,2023-11-30 20h09.58.298428 +0530,
blue,blue,right,congruent,6,2,20,2,,,,,,,,,,,,,,704612,001,2023-11-30_20h09.45.701,stroopeffect_solo,2023.2.2,56.87178476954697,2023-11-30 20h09.58.298428 +0530,
blue,blue,right,congruent,7,0,21,2,0,0,0,0,69.11392414800503,,69.1009052760055,69.61406549000094,69.61406549000094,69.9152966410038,left,0.30078571600461146,None,704612,001,2023-11-30_20h09.45.701,stroopeffect_solo,2023.2.2,56.87178476954697,2023-11-30 20h09.58.298428 +0530,
blue,blue,right,congruent,7,0,21,2,1,0,1,0,69.93008172500413,,69.91680189400358,70.43006860199966,70.43006860199966,70.4666266090062,right,0.03608361700025853,None,704612,001,2023-11-30_20h09.45.701,stroopeffect_solo,2023.2.2,56.87178476954697,2023-11-30 20h09.58.298428 +0530,
blue,blue,right,congruent,7,0,21,2,2,0,2,0,70.4806064390068,,70.46771194500616,70.97994556000049,70.97994556000049,71.01640160000534,left,0.035926648997701705,None,704612,001,2023-11-30_20h09.45.701,stroopeffect_solo,2023.2.2,56.87178476954697,2023-11-30 20h09.58.298428 +0530,
blue,blue,right,congruent,7,0,21,2,3,0,3,0,71.03061508100654,,71.01748200500151,71.52992093500507,71.52992093500507,71.55006066799979,right,0.019615750999946613,None,704612,001,2023-11-30_20h09.45.701,stroopeffect_solo,2023.2.2,56.87178476954697,2023-11-30 20h09.58.298428 +0530,
blue,blue,right,congruent,7,0,21,2,4,0,4,0,71.56381156000134,,71.55109524600266,72.06326251100108,72.06326251100108,72.11567962700065,left,0.05203787399659632,None,704612,001,2023-11-30_20h09.45.701,stroopeffect_solo,2023.2.2,56.87178476954697,2023-11-30 20h09.58.298428 +0530,
blue,blue,right,congruent,7,0,21,2,,,,,,,,,,,,,,704612,001,2023-11-30_20h09.45.701,stroopeffect_solo,2023.2.2,56.87178476954697,2023-11-30 20h09.58.298428 +0530,
red,red,left,congruent,7,1,22,0,0,0,0,0,72.13309286200092,,72.11749049700302,72.6309415640062,72.6309415640062,72.74965361700015,right,0.11818654499802506,None,704612,001,2023-11-30_20h09.45.701,stroopeffect_solo,2023.2.2,56.87178476954697,2023-11-30 20h09.58.298428 +0530,
red,red,left,congruent,7,1,22,0,1,0,1,0,72.76368662000459,,72.75088168799994,73.26323042900185,73.26323042900185,73.33317885900033,left,0.0695943110040389,None,704612,001,2023-11-30_20h09.45.701,stroopeffect_solo,2023.2.2,56.87178476954697,2023-11-30 20h09.58.298428 +0530,
red,red,left,congruent,7,1,22,0,2,0,2,0,73.346838260004,,73.33395675900101,73.84654842900636,73.84654842900636,73.88109222700587,right,0.03409702600038145,None,704612,001,2023-11-30_20h09.45.701,stroopeffect_solo,2023.2.2,56.87178476954697,2023-11-30 20h09.58.298428 +0530,
red,red,left,congruent,7,1,22,0,3,0,3,0,73.89655017600307,,73.88218759400479,74.39652041800582,74.39652041800582,74.49943914500182,left,0.10251447100017685,None,704612,001,2023-11-30_20h09.45.701,stroopeffect_solo,2023.2.2,56.87178476954697,2023-11-30 20h09.58.298428 +0530,
red,red,left,congruent,7,1,22,0,4,0,4,0,74.51317254600144,,74.50021755900525,75.01318324500608,75.01318324500608,75.04847308400349,right,0.034841837994463276,None,704612,001,2023-11-30_20h09.45.701,stroopeffect_solo,2023.2.2,56.87178476954697,2023-11-30 20h09.58.298428 +0530,
red,red,left,congruent,7,1,22,0,,,,,,,,,,,,,,704612,001,2023-11-30_20h09.45.701,stroopeffect_solo,2023.2.2,56.87178476954697,2023-11-30 20h09.58.298428 +0530,
green,green,down,incongruent,7,2,23,1,0,0,0,0,75.06551578400104,,75.05097514000227,75.56323410500045,75.56323410500045,75.63180277100037,left,0.06822932600334752,None,704612,001,2023-11-30_20h09.45.701,stroopeffect_solo,2023.2.2,56.87178476954697,2023-11-30 20h09.58.298428 +0530,
green,green,down,incongruent,7,2,23,1,1,0,1,0,75.64657541400084,,75.63288006500079,76.14670702500007,76.14670702500007,76.43212372400012,down,0.2849715990014374,None,704612,001,2023-11-30_20h09.45.701,stroopeffect_solo,2023.2.2,56.87178476954697,2023-11-30 20h09.58.298428 +0530,
green,green,down,incongruent,7,2,23,1,2,0,2,0,76.44682083400403,,76.43309758900432,76.94663825600583,76.94663825600583,77.09910892400512,down,0.15213006100384519,None,704612,001,2023-11-30_20h09.45.701,stroopeffect_solo,2023.2.2,56.87178476954697,2023-11-30 20h09.58.298428 +0530,
green,green,down,incongruent,7,2,23,1,3,0,3,0,77.11333389000356,,77.09988381100266,77.61387888900208,77.61387888900208,77.98325922900403,left,0.36902994100091746,None,704612,001,2023-11-30_20h09.45.701,stroopeffect_solo,2023.2.2,56.87178476954697,2023-11-30 20h09.58.298428 +0530,
green,green,down,incongruent,7,2,23,1,4,0,4,0,77.99747888400452,,77.98405650300265,78.49707691400545,78.49707691400545,78.55090033500164,right,0.053312381998694036,None,704612,001,2023-11-30_20h09.45.701,stroopeffect_solo,2023.2.2,56.87178476954697,2023-11-30 20h09.58.298428 +0530,
green,green,down,incongruent,7,2,23,1,,,,,,,,,,,,,,704612,001,2023-11-30_20h09.45.701,stroopeffect_solo,2023.2.2,56.87178476954697,2023-11-30 20h09.58.298428 +0530,
red,red,left,congruent,8,0,24,0,0,0,0,0,78.56793144200492,,78.5534642890052,79.06374761100597,79.06374761100597,79.13324066000496,left,0.06913430599524872,None,704612,001,2023-11-30_20h09.45.701,stroopeffect_solo,2023.2.2,56.87178476954697,2023-11-30 20h09.58.298428 +0530,
red,red,left,congruent,8,0,24,0,1,0,1,0,79.1475310990063,,79.13424764600495,79.64715940700262,79.64715940700262,79.78223873900424,right,0.13463699499698123,None,704612,001,2023-11-30_20h09.45.701,stroopeffect_solo,2023.2.2,56.87178476954697,2023-11-30 20h09.58.298428 +0530,
red,red,left,congruent,8,0,24,0,2,0,2,0,79.79679067600227,,79.78322494200256,80.29708679200121,80.29708679200121,80.35074081000494,left,0.05320977200608468,None,704612,001,2023-11-30_20h09.45.701,stroopeffect_solo,2023.2.2,56.87178476954697,2023-11-30 20h09.58.298428 +0530,
red,red,left,congruent,8,0,24,0,3,0,3,0,80.36505903100624,,80.35183822600084,80.86369343100523,80.86369343100523,80.91617209499964,right,0.052092740006628446,None,704612,001,2023-11-30_20h09.45.701,stroopeffect_solo,2023.2.2,56.87178476954697,2023-11-30 20h09.58.298428 +0530,
red,red,left,congruent,8,0,24,0,4,0,4,0,80.93038449600135,,80.91695122000237,81.43026160500449,81.43026160500449,81.44907622000028,left,0.018420417000015732,None,704612,001,2023-11-30_20h09.45.701,stroopeffect_solo,2023.2.2,56.87178476954697,2023-11-30 20h09.58.298428 +0530,
red,red,left,congruent,8,0,24,0,,,,,,,,,,,,,,704612,001,2023-11-30_20h09.45.701,stroopeffect_solo,2023.2.2,56.87178476954697,2023-11-30 20h09.58.298428 +0530,
green,green,down,incongruent,8,1,25,1,0,0,0,0,81.46725469800003,,81.45070226300595,81.96298310800194,81.96298310800194,82.04858894500649,right,0.0852519320033025,None,704612,001,2023-11-30_20h09.45.701,stroopeffect_solo,2023.2.2,56.87178476954697,2023-11-30 20h09.58.298428 +0530,
green,green,down,incongruent,8,1,25,1,1,0,1,0,82.063327407006,,82.04955891999998,82.56334219500422,82.56334219500422,82.59917153500282,left,0.03547480999986874,None,704612,001,2023-11-30_20h09.45.701,stroopeffect_solo,2023.2.2,56.87178476954697,2023-11-30 20h09.58.298428 +0530,
green,green,down,incongruent,8,1,25,1,2,0,2,0,82.61326729600114,,82.59994759600522,83.11333495300642,83.11333495300642,83.18273275200045,right,0.06900535799650243,None,704612,001,2023-11-30_20h09.45.701,stroopeffect_solo,2023.2.2,56.87178476954697,2023-11-30 20h09.58.298428 +0530,
green,green,down,incongruent,8,1,25,1,3,0,3,0,83.19650700000057,,83.1835106120052,83.69642171700252,83.69642171700252,84.03311171700625,left,0.33624539599986747,None,704612,001,2023-11-30_20h09.45.701,stroopeffect_solo,2023.2.2,56.87178476954697,2023-11-30 20h09.58.298428 +0530,
green,green,down,incongruent,8,1,25,1,4,0,4,0,84.04734152700257,,84.03420158900553,84.5470835840024,84.5470835840024,84.80028093400324,down,0.2526857570046559,None,704612,001,2023-11-30_20h09.45.701,stroopeffect_solo,2023.2.2,56.87178476954697,2023-11-30 20h09.58.298428 +0530,
green,green,down,incongruent,8,1,25,1,,,,,,,,,,,,,,704612,001,2023-11-30_20h09.45.701,stroopeffect_solo,2023.2.2,56.87178476954697,2023-11-30 20h09.58.298428 +0530,
blue,blue,right,congruent,8,2,26,2,0,0,0,0,84.81779682200431,,84.80248264600232,85.3133030099998,85.3133030099998,85.33330402800493,down,0.019620883002062328,None,704612,001,2023-11-30_20h09.45.701,stroopeffect_solo,2023.2.2,56.87178476954697,2023-11-30 20h09.58.298428 +0530,
blue,blue,right,congruent,8,2,26,2,1,0,1,0,85.3473276940058,,85.33438292200299,85.84677630700025,85.84677630700025,86.13294027400116,left,0.285763940999459,None,704612,001,2023-11-30_20h09.45.701,stroopeffect_solo,2023.2.2,56.87178476954697,2023-11-30 20h09.58.298428 +0530,
blue,blue,right,congruent,8,2,26,2,2,0,2,0,86.1466627300033,,86.13372618200083,86.64660855100374,86.64660855100374,86.882366018006,down,0.2353045120034949,None,704612,001,2023-11-30_20h09.45.701,stroopeffect_solo,2023.2.2,56.87178476954697,2023-11-30 20h09.58.298428 +0530,
blue,blue,right,congruent,8,2,26,2,3,0,3,0,86.89686437900673,,86.8834566190053,87.39659990700602,87.39659990700602,87.48338191100629,down,0.08628049399703741,None,704612,001,2023-11-30_20h09.45.701,stroopeffect_solo,2023.2.2,56.87178476954697,2023-11-30 20h09.58.298428 +0530,
blue,blue,right,congruent,8,2,26,2,4,0,4,0,87.4977385470047,,87.48447149600543,87.99755519700557,87.99755519700557,88.30001705700124,left,0.3019410560009419,None,704612,001,2023-11-30_20h09.45.701,stroopeffect_solo,2023.2.2,56.87178476954697,2023-11-30 20h09.58.298428 +0530,
blue,blue,right,congruent,8,2,26,2,,,,,,,,,,,,,,704612,001,2023-11-30_20h09.45.701,stroopeffect_solo,2023.2.2,56.87178476954697,2023-11-30 20h09.58.298428 +0530,
green,green,down,incongruent,9,0,27,1,0,0,0,0,88.31703306800046,,88.30248840200511,88.81345187700208,88.81345187700208,89.08158380000532,down,0.26766893500462174,None,704612,001,2023-11-30_20h09.45.701,stroopeffect_solo,2023.2.2,56.87178476954697,2023-11-30 20h09.58.298428 +0530,
green,green,down,incongruent,9,0,27,1,1,0,1,0,89.0967450590033,,89.08318810100172,89.59663400600402,89.59663400600402,89.69926249900163,down,0.10227803399902768,None,704612,001,2023-11-30_20h09.45.701,stroopeffect_solo,2023.2.2,56.87178476954697,2023-11-30 20h09.58.298428 +0530,
green,green,down,incongruent,9,0,27,1,2,0,2,0,89.71301086200401,,89.69996014900244,90.21370081799978,90.21370081799978,90.49897462000081,left,0.28489432700007455,None,704612,001,2023-11-30_20h09.45.701,stroopeffect_solo,2023.2.2,56.87178476954697,2023-11-30 20h09.58.298428 +0530,
green,green,down,incongruent,9,0,27,1,3,0,3,0,90.51310704500065,,90.49975310700393,91.01446716700593,91.01446716700593,91.24995086000126,down,0.23496007899666438,None,704612,001,2023-11-30_20h09.45.701,stroopeffect_solo,2023.2.2,56.87178476954697,2023-11-30 20h09.58.298428 +0530,
green,green,down,incongruent,9,0,27,1,4,0,4,0,91.26403543100605,,91.25105357400025,91.7633365110014,91.7633365110014,91.79913426600251,down,0.03541811699687969,None,704612,001,2023-11-30_20h09.45.701,stroopeffect_solo,2023.2.2,56.87178476954697,2023-11-30 20h09.58.298428 +0530,
green,green,down,incongruent,9,0,27,1,,,,,,,,,,,,,,704612,001,2023-11-30_20h09.45.701,stroopeffect_solo,2023.2.2,56.87178476954697,2023-11-30 20h09.58.298428 +0530,
red,red,left,congruent,9,1,28,0,0,0,0,0,91.81620643600036,,91.80088565700134,92.31416601000092,92.31416601000092,92.58286126700114,left,0.2683409710007254,None,704612,001,2023-11-30_20h09.45.701,stroopeffect_solo,2023.2.2,56.87178476954697,2023-11-30 20h09.58.298428 +0530,
red,red,left,congruent,9,1,28,0,1,0,1,0,92.59690620800393,,92.58393889900617,93.09703988500405,93.09703988500405,93.34912768500362,down,0.2517432890017517,None,704612,001,2023-11-30_20h09.45.701,stroopeffect_solo,2023.2.2,56.87178476954697,2023-11-30 20h09.58.298428 +0530,
red,red,left,congruent,9,1,28,0,2,0,2,0,93.36300076000043,,93.34990082200238,93.86318786000629,93.86318786000629,93.93296091100638,down,0.06930526500218548,None,704612,001,2023-11-30_20h09.45.701,stroopeffect_solo,2023.2.2,56.87178476954697,2023-11-30 20h09.58.298428 +0530,
red,red,left,congruent,9,1,28,0,3,0,3,0,93.9472712880015,,93.93407217600179,94.44651945900114,94.44651945900114,94.48219184400659,down,0.03523179199692095,None,704612,001,2023-11-30_20h09.45.701,stroopeffect_solo,2023.2.2,56.87178476954697,2023-11-30 20h09.58.298428 +0530,
red,red,left,congruent,9,1,28,0,4,0,4,0,94.4966368710011,,94.48327866000182,94.99652989900642,94.99652989900642,94.99964757999987,down,0.0027253929947619326,None,704612,001,2023-11-30_20h09.45.701,stroopeffect_solo,2023.2.2,56.87178476954697,2023-11-30 20h09.58.298428 +0530,
red,red,left,congruent,9,1,28,0,,,,,,,,,,,,,,704612,001,2023-11-30_20h09.45.701,stroopeffect_solo,2023.2.2,56.87178476954697,2023-11-30 20h09.58.298428 +0530,
blue,blue,right,congruent,9,2,29,2,0,0,0,0,95.01501864199963,,95.00144180200004,95.51323605000653,95.51323605000653,95.74966434300586,left,0.2359554609938641,None,704612,001,2023-11-30_20h09.45.701,stroopeffect_solo,2023.2.2,56.87178476954697,2023-11-30 20h09.58.298428 +0530,
blue,blue,right,congruent,9,2,29,2,1,0,1,0,95.76404155500495,,95.7510885820011,96.26329081900622,96.26329081900622,96.46547042900056,down,0.20182983999984572,None,704612,001,2023-11-30_20h09.45.701,stroopeffect_solo,2023.2.2,56.87178476954697,2023-11-30 20h09.58.298428 +0530,
blue,blue,right,congruent,9,2,29,2,2,0,2,0,96.47975042500184,,96.46624907500518,96.97979759400187,96.97979759400187,97.01621058500314,down,0.036053233001439366,None,704612,001,2023-11-30_20h09.45.701,stroopeffect_solo,2023.2.2,56.87178476954697,2023-11-30 20h09.58.298428 +0530,
blue,blue,right,congruent,9,2,29,2,3,0,3,0,97.03013003700471,,97.01699153500522,97.52981709300366,97.52981709300366,97.7649017280055,left,0.23463558799994644,None,704612,001,2023-11-30_20h09.45.701,stroopeffect_solo,2023.2.2,56.87178476954697,2023-11-30 20h09.58.298428 +0530,
blue,blue,right,congruent,9,2,29,2,4,0,4,0,97.77980209100497,,97.76599262899981,98.27980143100285,98.27980143100285,98.46408257400617,down,0.18383937299950048,None,704612,001,2023-11-30_20h09.45.701,stroopeffect_solo,2023.2.2,56.87178476954697,2023-11-30 20h09.58.298428 +0530,
blue,blue,right,congruent,9,2,29,2,,,,,,,,,,,,,,704612,001,2023-11-30_20h09.45.701,stroopeffect_solo,2023.2.2,56.87178476954697,2023-11-30 20h09.58.298428 +0530,
